participantId,group,instructionCondition,trialNumber,block,condition,userChoice,outcome,reactionTime,isCorrect,hidden_state,false_feedback,varvol_avg_choice,weber_avg_choice
c88395a3,B,Instructions,1,block1,medium_noise,0,loss,2681,0,1,0,0.58,0.48
c88395a3,B,Instructions,2,block1,medium_noise,1,win,963,1,1,0,0.86,0.72
c88395a3,B,Instructions,3,block1,medium_noise,1,loss,815,0,0,0,0.9,0.84
c88395a3,B,Instructions,4,block1,medium_noise,0,loss,466,1,0,1,0.62,0.42
c88395a3,B,Instructions,5,block1,medium_noise,1,win,732,0,0,1,0.76,0.82
c88395a3,B,Instructions,6,block1,medium_noise,0,loss,698,1,0,1,0.98,0.98
c88395a3,B,Instructions,7,block1,medium_noise,1,loss,433,0,0,0,0.98,0.92
c88395a3,B,Instructions,8,block1,medium_noise,0,loss,31,1,0,1,0.72,0.76
c88395a3,B,Instructions,9,block1,medium_noise,1,win,365,0,0,1,0.84,0.92
c88395a3,B,Instructions,10,block1,medium_noise,1,win,283,0,0,1,0.94,0.92
c88395a3,B,Instructions,11,block1,medium_noise,1,loss,215,0,0,0,0.96,0.92
c88395a3,B,Instructions,12,block1,medium_noise,1,loss,266,0,0,0,0.82,0.9
c88395a3,B,Instructions,13,block1,medium_noise,0,loss,534,1,0,1,0.6,0.58
c88395a3,B,Instructions,14,block1,medium_noise,1,loss,347,0,0,0,0.82,0.86
c88395a3,B,Instructions,15,block1,medium_noise,0,win,164,1,0,0,0.6,0.54
c88395a3,B,Instructions,16,block1,medium_noise,0,win,265,1,0,0,0.42,0.24
c88395a3,B,Instructions,17,block1,medium_noise,0,win,413,1,0,0,0.18,0.24
c88395a3,B,Instructions,18,block1,medium_noise,0,win,217,1,0,0,0.16,0.08
c88395a3,B,Instructions,19,block1,medium_noise,0,win,297,1,0,0,0.08,0.1
c88395a3,B,Instructions,20,block1,medium_noise,0,win,365,1,0,0,0.1,0.06
c88395a3,B,Instructions,21,block1,medium_noise,0,loss,166,1,0,1,0.08,0.08
c88395a3,B,Instructions,22,block1,medium_noise,1,loss,30,0,0,0,0.24,0.16
c88395a3,B,Instructions,23,block1,medium_noise,0,win,366,1,0,0,0.06,0.08
c88395a3,B,Instructions,24,block1,medium_noise,0,loss,580,1,0,1,0.1,0.12
c88395a3,B,Instructions,25,block1,medium_noise,1,win,180,0,0,1,0.18,0.28
c88395a3,B,Instructions,26,block1,medium_noise,1,loss,482,0,0,0,0.54,0.5
c88395a3,B,Instructions,27,block1,medium_noise,0,win,315,1,0,0,0.22,0.14
c88395a3,B,Instructions,28,block1,medium_noise,0,win,349,1,0,0,0.22,0.1
c88395a3,B,Instructions,29,block1,medium_noise,0,win,165,1,0,0,0.12,0.1
c88395a3,B,Instructions,30,block1,medium_noise,0,loss,215,1,0,1,0.04,0.04
c88395a3,B,Instructions,31,block1,medium_noise,1,win,382,1,1,0,0.14,0.14
c88395a3,B,Instructions,32,block1,medium_noise,1,loss,416,1,1,1,0.48,0.26
c88395a3,B,Instructions,33,block1,medium_noise,0,loss,181,0,1,0,0.26,0.08
c88395a3,B,Instructions,34,block1,medium_noise,1,win,131,1,1,0,0.44,0.36
c88395a3,B,Instructions,35,block1,medium_noise,1,win,148,1,1,0,0.6,0.52
c88395a3,B,Instructions,36,block1,medium_noise,1,loss,433,0,0,0,0.78,0.72
c88395a3,B,Instructions,37,block1,medium_noise,0,win,64,1,0,0,0.54,0.3
c88395a3,B,Instructions,38,block1,medium_noise,0,win,215,1,0,0,0.2,0.1
c88395a3,B,Instructions,39,block1,medium_noise,0,win,316,1,0,0,0.18,0.1
c88395a3,B,Instructions,40,block1,medium_noise,0,loss,213,1,0,1,0.16,0.12
c88395a3,B,Instructions,41,block1,medium_noise,1,loss,31,0,0,0,0.28,0.08
c88395a3,B,Instructions,42,block1,medium_noise,0,win,748,1,0,0,0.2,0.06
c88395a3,B,Instructions,43,block1,medium_noise,0,win,83,1,0,0,0.18,0.12
c88395a3,B,Instructions,44,block1,medium_noise,0,loss,148,0,1,0,0.06,0.04
c88395a3,B,Instructions,45,block1,medium_noise,1,win,65,1,1,0,0.2,0.1
c88395a3,B,Instructions,46,block1,medium_noise,1,win,1382,1,1,0,0.58,0.26
c88395a3,B,Instructions,47,block1,medium_noise,1,loss,182,1,1,1,0.68,0.32
c88395a3,B,Instructions,48,block1,medium_noise,0,loss,250,0,1,0,0.46,0.18
c88395a3,B,Instructions,49,block1,medium_noise,1,loss,132,1,1,1,0.6,0.36
c88395a3,B,Instructions,50,block1,medium_noise,0,loss,130,0,1,0,0.5,0.2
c88395a3,B,Instructions,1,block2,high_noise,1,loss,3983,0,0,0,0.68,0.42
c88395a3,B,Instructions,2,block2,high_noise,0,win,563,1,0,0,0.38,0.16
c88395a3,B,Instructions,3,block2,high_noise,0,loss,214,1,0,1,0.28,0.08
c88395a3,B,Instructions,4,block2,high_noise,1,loss,15,0,0,0,0.38,0.22
c88395a3,B,Instructions,5,block2,high_noise,0,loss,87,1,0,1,0.28,0.16
c88395a3,B,Instructions,6,block2,high_noise,1,loss,479,0,0,0,0.54,0.28
c88395a3,B,Instructions,7,block2,high_noise,0,win,79,1,0,0,0.34,0.2
c88395a3,B,Instructions,8,block2,high_noise,0,loss,132,1,0,1,0.18,0.12
c88395a3,B,Instructions,9,block2,high_noise,1,win,267,0,0,1,0.5,0.14
c88395a3,B,Instructions,10,block2,high_noise,1,loss,432,0,0,0,0.64,0.32
c88395a3,B,Instructions,11,block2,high_noise,0,win,115,1,0,0,0.32,0.16
c88395a3,B,Instructions,12,block2,high_noise,0,loss,148,1,0,1,0.18,0.08
c88395a3,B,Instructions,13,block2,high_noise,1,loss,332,0,0,0,0.44,0.24
c88395a3,B,Instructions,14,block2,high_noise,0,win,314,1,0,0,0.24,0.14
c88395a3,B,Instructions,15,block2,high_noise,1,win,49,0,0,1,0.28,0.08
c88395a3,B,Instructions,16,block2,high_noise,0,win,381,1,0,0,0.46,0.22
c88395a3,B,Instructions,17,block2,high_noise,1,loss,348,0,0,0,0.18,0.1
c88395a3,B,Instructions,18,block2,high_noise,0,loss,217,1,0,1,0.16,0.12
c88395a3,B,Instructions,19,block2,high_noise,1,win,146,0,0,1,0.42,0.12
c88395a3,B,Instructions,20,block2,high_noise,1,win,466,0,0,1,0.64,0.18
c88395a3,B,Instructions,21,block2,high_noise,1,win,547,1,1,0,0.52,0.4
c88395a3,B,Instructions,22,block2,high_noise,1,win,515,1,1,0,0.74,0.5
c88395a3,B,Instructions,23,block2,high_noise,1,win,432,1,1,0,0.6,0.68
c88395a3,B,Instructions,24,block2,high_noise,1,win,348,1,1,0,0.8,0.78
c88395a3,B,Instructions,25,block2,high_noise,1,loss,348,1,1,1,0.76,0.82
c88395a3,B,Instructions,26,block2,high_noise,0,loss,81,0,1,0,0.58,0.64
c88395a3,B,Instructions,27,block2,high_noise,1,win,480,1,1,0,0.68,0.82
c88395a3,B,Instructions,28,block2,high_noise,1,loss,432,1,1,1,0.7,0.86
c88395a3,B,Instructions,29,block2,high_noise,0,loss,331,0,1,0,0.62,0.64
c88395a3,B,Instructions,30,block2,high_noise,1,loss,65,1,1,1,0.76,0.64
c88395a3,B,Instructions,31,block2,high_noise,0,win,114,0,1,1,0.48,0.56
c88395a3,B,Instructions,32,block2,high_noise,1,win,532,1,1,0,0.4,0.24
c88395a3,B,Instructions,33,block2,high_noise,1,loss,416,0,0,0,0.66,0.44
c88395a3,B,Instructions,34,block2,high_noise,0,loss,466,1,0,1,0.44,0.34
c88395a3,B,Instructions,35,block2,high_noise,1,loss,164,0,0,0,0.48,0.56
c88395a3,B,Instructions,36,block2,high_noise,0,loss,265,1,0,1,0.46,0.12
c88395a3,B,Instructions,37,block2,high_noise,1,loss,49,0,0,0,0.62,0.62
c88395a3,B,Instructions,38,block2,high_noise,0,win,499,1,0,0,0.36,0.36
c88395a3,B,Instructions,39,block2,high_noise,0,loss,231,1,0,1,0.34,0.2
c88395a3,B,Instructions,40,block2,high_noise,1,win,198,0,0,1,0.58,0.44
c88395a3,B,Instructions,41,block2,high_noise,1,win,283,0,0,1,0.58,0.38
c88395a3,B,Instructions,42,block2,high_noise,1,loss,347,0,0,0,0.7,0.52
c88395a3,B,Instructions,43,block2,high_noise,0,win,232,1,0,0,0.6,0.18
c88395a3,B,Instructions,44,block2,high_noise,0,win,399,1,0,0,0.4,0.3
c88395a3,B,Instructions,45,block2,high_noise,0,win,833,1,0,0,0.36,0.22
c88395a3,B,Instructions,46,block2,high_noise,0,win,349,1,0,0,0.24,0.06
c88395a3,B,Instructions,47,block2,high_noise,0,win,267,1,0,0,0.32,0.1
c88395a3,B,Instructions,48,block2,high_noise,0,win,296,1,0,0,0.3,0.08
c88395a3,B,Instructions,49,block2,high_noise,0,win,283,1,0,0,0.22,0.12
c88395a3,B,Instructions,50,block2,high_noise,0,win,431,1,0,0,0.24,0.04
